Folder: SKP_IISc/PH_213/XRD

Note: PH_213/README.md
# PH 213 lab report - Group 3 (Mousam, Amaan, Suman, Trijeet)

## XRD Analysis

## XPS Analysis

## XRR Analysis

## Magnetic Measurement

File: Grp3.dat
10.0000 178.0000 1.0000
10.2700 162.0000 1.0000
10.5400 169.0000 1.0000
10.8100 149.0000 1.0000
11.0800 176.0000 1.0000
11.3500 185.0000 1.0000
11.6200 159.0000 1.0000
11.8900 176.0000 1.0000
12.1600 164.0000 1.0000
12.4300 161.0000 1.0000
12.7000 174.0000 1.0000
12.9700 157.0000 1.0000
13.2400 164.0000 1.0000
13.5100 151.0000 1.0000
13.7800 141.0000 1.0000
14.0500 164.0000 1.0000
14.3200 162.0000 1.0000
14.5900 186.0000 1.0000
14.8600 154.0000 1.0000
15.1300 163.0000 1.0000
15.4000 151.0000 1.0000
15.6700 163.0000 1.0000
15.9400 162.0000 1.0000
16.2100 167.0000 1.0000
16.4800 165.0000 1.0000
16.7500 174.0000 1.0000
17.0200 178.0000 1.0000
17.2900 168.0000 1.0000
17.5600 182.0000 1.0000
17.8300 178.0000 1.0000
18.1000 184.0000 1.0000
18.3700 159.0000 1.0000
18.6400 172.0000 1.0000
18.9100 172.0000 1.0000
19.1800 186.0000 1.0000
19.4500 171.0000 1.0000
19.7200 186.0000 1.0000
19.9900 190.0000 1.0000
20.2600 204.0000 1.0000
20.5300 191.0000 1.0000
20.8000 199.0000 1.0000
21.0700 196.0000 1.0000
21.3400 216.0000 1.0000
21.6100 211.0000 1.0000
21.8800 175.0000 1.0000
22.1500 188.0000 1.0000
22.4200 161.0000 1.0000
22.6900 228.0000 1.0000
22.9600 283.0000 1.0000
23.2300 226.0000 1.0000
23.5000 217.0000 1.0000
23.7700 189.0000 1.0000
24.0400 228.0000 1.0000
24.3100 193.0000 1.0000
24.5800 208.0000 1.0000
24.8500 221.0000 1.0000
25.1200 240.0000 1.0000
25.3900 237.0000 1.0000
25.6600 225.0000 1.0000
25.9300 251.0000 1.0000
26.2000 225.0000 1.0000
26.4700 250.0000 1.0000
26.7400 240.0000 1.0000
27.0100 249.0000 1.0000
27.2800 253.0000 1.0000
27.5500 232.0000 1.0000
27.8200 247.0000 1.0000
28.0900 231.0000 1.0000
28.3600 224.0000 1.0000
28.6300 240.0000 1.0000
28.9000 230.0000 1.0000
29.1700 257.0000 1.0000
29.4400 271.0000 1.0000
29.7100 248.0000 1.0000
29.9800 248.0000 1.0000
30.2500 254.0000 1.0000
30.5200 268.0000 1.0000
30.7900 246.0000 1.0000
31.0600 207.0000 1.0000
31.3300 250.0000 1.0000
31.6000 277.0000 1.0000
31.8700 259.0000 1.0000
32.1400 281.0000 1.0000
32.4100 293.0000 1.0000
32.6800 750.0000 1.0000
32.9500 1281 1.0000
33.2200 329.0000 1.0000
33.4900 259.0000 1.0000
33.7600 290.0000 1.0000
34.0300 268.0000 1.0000
34.3000 282.0000 1.0000
34.5700 286.0000 1.0000
34.8400 277.0000 1.0000
35.1100 282.0000 1.0000
35.3800 321.0000 1.0000
35.6500 272.0000 1.0000
35.9200 297.0000 1.0000
36.1900 295.0000 1.0000
36.4600 297.0000 1.0000
36.7300 279.0000 1.0000
37.0000 295.0000 1.0000
37.2700 306.0000 1.0000
37.5400 272.0000 1.0000
37.8100 278.0000 1.0000
38.0800 263.0000 1.0000
38.3500 299.0000 1.0000
38.6200 300.0000 1.0000
38.8900 308.0000 1.0000
39.1600 324.0000 1.0000
39.4300 286.0000 1.0000
39.7000 273.0000 1.0000
39.9700 303.0000 1.0000
40.2400 332.0000 1.0000
40.5100 460.0000 1.0000
40.7800 434.0000 1.0000
41.0500 309.0000 1.0000
41.3200 292.0000 1.0000
41.5900 322.0000 1.0000
41.8600 331.0000 1.0000
42.1300 323.0000 1.0000
42.4000 322.0000 1.0000
42.6700 353.0000 1.0000
42.9400 328.0000 1.0000
43.2100 318.0000 1.0000
43.4800 296.0000 1.0000
43.7500 324.0000 1.0000
44.0200 292.0000 1.0000
44.2900 315.0000 1.0000
44.5600 323.0000 1.0000
44.8300 346.0000 1.0000
45.1000 355.0000 1.0000
45.3700 361.0000 1.0000
45.6400 343.0000 1.0000
45.9100 326.0000 1.0000
46.1800 294.0000 1.0000
46.4500 306.0000 1.0000
46.7200 358.0000 1.0000
46.9900 431.0000 1.0000
47.2600 756.0000 1.0000
47.5300 552.0000 1.0000
47.8000 336.0000 1.0000
48.0700 357.0000 1.0000
48.3400 339.0000 1.0000
48.6100 386.0000 1.0000
48.8800 350.0000 1.0000
49.1500 351.0000 1.0000
49.4200 384.0000 1.0000
49.6900 361.0000 1.0000
49.9600 342.0000 1.0000
50.2300 343.0000 1.0000
50.5000 351.0000 1.0000
50.7700 306.0000 1.0000
51.0400 349.0000 1.0000
51.3100 334.0000 1.0000
51.5800 339.0000 1.0000
51.8500 334.0000 1.0000
52.1200 367.0000 1.0000
52.3900 363.0000 1.0000
52.6600 342.0000 1.0000
52.9300 401.0000 1.0000
53.2000 424.0000 1.0000
53.4700 406.0000 1.0000
53.7400 381.0000 1.0000
54.0100 322.0000 1.0000
54.2800 363.0000 1.0000
54.5500 347.0000 1.0000
54.8200 378.0000 1.0000
55.0900 373.0000 1.0000
55.3600 353.0000 1.0000
55.6300 341.0000 1.0000
55.9000 366.0000 1.0000
56.1700 386.0000 1.0000
56.4400 377.0000 1.0000
56.7100 357.0000 1.0000
56.9800 379.0000 1.0000
57.2500 371.0000 1.0000
57.5200 366.0000 1.0000
57.7900 381.0000 1.0000
58.0600 404.0000 1.0000
58.3300 343.0000 1.0000
58.6000 558.0000 1.0000
58.8700 881.0000 1.0000
59.1400 629.0000 1.0000
59.4100 398.0000 1.0000
59.6800 382.0000 1.0000
59.9500 345.0000 1.0000
60.2200 384.0000 1.0000
60.4900 366.0000 1.0000
60.7600 395.0000 1.0000
61.0300 372.0000 1.0000
61.3000 395.0000 1.0000
61.5700 410.0000 1.0000
61.8400 420.0000 1.0000
62.1100 377.0000 1.0000
62.3800 399.0000 1.0000
62.6500 364.0000 1.0000
62.9200 377.0000 1.0000
63.1900 415.0000 1.0000
63.4600 370.0000 1.0000
63.7300 403.0000 1.0000
64.0000 402.0000 1.0000
64.2700 389.0000 1.0000
64.5400 423.0000 1.0000
64.8100 386.0000 1.0000
65.0800 399.0000 1.0000
65.3500 384.0000 1.0000
65.6200 394.0000 1.0000
65.8900 386.0000 1.0000
66.1600 420.0000 1.0000
66.4300 415.0000 1.0000
66.7000 410.0000 1.0000
66.9700 400.0000 1.0000
67.2400 401.0000 1.0000
67.5100 438.0000 1.0000
67.7800 385.0000 1.0000
68.0500 415.0000 1.0000
68.3200 397.0000 1.0000
68.5900 436.0000 1.0000
68.8600 449.0000 1.0000
69.1300 601.0000 1.0000
69.4000 606.0000 1.0000
69.6700 471.0000 1.0000
69.9400 369.0000 1.0000
70.2100 396.0000 1.0000
70.4800 387.0000 1.0000
70.7500 439.0000 1.0000
71.0200 414.0000 1.0000
71.2900 462.0000 1.0000
71.5600 409.0000 1.0000
71.8300 390.0000 1.0000
72.1000 416.0000 1.0000
72.3700 394.0000 1.0000
72.6400 410.0000 1.0000
72.9100 408.0000 1.0000
73.1800 423.0000 1.0000
73.4500 414.0000 1.0000
73.7200 431.0000 1.0000
73.9900 420.0000 1.0000
74.2600 449.0000 1.0000
74.5300 432.0000 1.0000
74.8000 396.0000 1.0000
75.0700 435.0000 1.0000
75.3400 430.0000 1.0000
75.6100 410.0000 1.0000
75.8800 405.0000 1.0000
76.1500 422.0000 1.0000
76.4200 419.0000 1.0000
76.6900 445.0000 1.0000
76.9600 417.0000 1.0000
77.2300 405.0000 1.0000
77.5000 409.0000 1.0000
77.7700 443.0000 1.0000
78.0400 426.0000 1.0000
78.3100 451.0000 1.0000
78.5800 456.0000 1.0000
78.8500 608.0000 1.0000
79.1200 540.0000 1.0000
79.3900 438.0000 1.0000
79.6600 415.0000 1.0000
79.9300 432.0000 1.0000
80.2000 408.0000 1.0000
80.4700 440.0000 1.0000
80.7400 425.0000 1.0000
81.0100 415.0000 1.0000
81.2800 417.0000 1.0000
81.5500 399.0000 1.0000
81.8200 412.0000 1.0000
82.0900 409.0000 1.0000
82.3600 436.0000 1.0000
82.6300 441.0000 1.0000
82.9000 459.0000 1.0000
83.1700 464.0000 1.0000
83.4400 446.0000 1.0000
83.7100 479.0000 1.0000
83.9800 451.0000 1.0000
84.2500 454.0000 1.0000
84.5200 403.0000 1.0000
84.7900 429.0000 1.0000
85.0600 463.0000 1.0000
85.3300 414.0000 1.0000
85.6000 436.0000 1.0000
85.8700 472.0000 1.0000
86.1400 425.0000 1.0000
86.4100 410.0000 1.0000
86.6800 477.0000 1.0000
86.9500 451.0000 1.0000
87.2200 471.0000 1.0000
87.4900 451.0000 1.0000
87.7600 444.0000 1.0000
88.0300 471.0000 1.0000
88.3000 493.0000 1.0000
88.5700 486.0000 1.0000
88.8400 433.0000 1.0000
89.1100 429.0000 1.0000
89.3800 446.0000 1.0000
89.6500 417.0000 1.0000
89.9200 433.0000 1.0000
90.0000 436.0000 1.0000